Block,Trial,image_code,space_pressed,correct_incorrect,reaction_time
4, 0, 13, 0, 0, 0.000
4, 1, 26, 1, 1, 0.647
4, 2, 33, 0, 0, 0.000
4, 3, 15, 0, 0, 0.000
4, 4, 34, 0, 0, 0.000
4, 5, 41, 0, 0, 0.000
4, 6, 21, 1, 1, 0.396
4, 7, 46, 0, 0, 0.000
4, 8, 27, 1, 1, 0.526
4, 9, 30, 1, 1, 0.612
4, 10, 24, 1, 1, 0.609
4, 11, 31, 1, 1, 0.548
4, 12, 52, 0, 0, 0.000
4, 13, 47, 1, 0, 0.609
4, 14, 39, 0, 0, 0.000
4, 15, 29, 0, 0, 0.000
4, 16, 19, 1, 1, 0.692
4, 17, 18, 1, 1, 0.585
4, 18, 49, 0, 0, 0.000
4, 19, 35, 0, 0, 0.000
4, 20, 20, 0, 0, 0.000
4, 21, 16, 1, 1, 0.456
4, 22, 45, 0, 0, 0.000
4, 23, 51, 0, 0, 0.000
4, 24, 32, 0, 0, 0.000
4, 25, 37, 0, 0, 0.000
4, 26, 38, 0, 0, 0.000
4, 27, 44, 0, 0, 0.000
4, 28, 48, 1, 0, 0.706
4, 29, 43, 0, 0, 0.000
4, 30, 23, 1, 1, 0.498
4, 31, 40, 0, 0, 0.000
4, 32, 22, 0, 0, 0.000
4, 33, 36, 1, 0, 0.599
4, 34, 42, 1, 0, 0.810
4, 35, 28, 0, 0, 0.000
4, 36, 50, 0, 0, 0.000
4, 37, 25, 1, 1, 0.706
4, 38, 14, 1, 1, 0.618
4, 39, 17, 0, 0, 0.000
3, 0, 43, 1, 0, 0.929
3, 1, 23, 0, 0, 0.000
3, 2, 52, 0, 0, 0.000
3, 3, 47, 0, 0, 0.000
3, 4, 38, 0, 0, 0.000
3, 5, 50, 0, 0, 0.000
3, 6, 22, 0, 0, 0.000
3, 7, 35, 0, 0, 0.000
3, 8, 44, 0, 0, 0.000
3, 9, 19, 0, 0, 0.000
3, 10, 16, 0, 0, 0.000
3, 11, 30, 1, 1, 0.576
3, 12, 20, 0, 0, 0.000
3, 13, 34, 0, 0, 0.000
3, 14, 31, 0, 0, 0.000
3, 15, 36, 0, 0, 0.000
3, 16, 13, 1, 1, 0.946
3, 17, 15, 0, 0, 0.000
3, 18, 18, 0, 0, 0.000
3, 19, 32, 1, 1, 0.439
3, 20, 42, 1, 0, 0.358
3, 21, 25, 0, 0, 0.000
3, 22, 48, 1, 0, 0.829
3, 23, 21, 1, 1, 0.546
3, 24, 33, 0, 0, 0.546
3, 25, 28, 0, 0, 0.000
3, 26, 40, 1, 0, 0.417
3, 27, 17, 0, 0, 0.000
3, 28, 27, 0, 0, 0.000
3, 29, 46, 1, 0, 0.964
3, 30, 39, 0, 0, 0.000
3, 31, 41, 1, 0, 0.556
3, 32, 45, 0, 0, 0.000
3, 33, 24, 0, 0, 0.000
3, 34, 26, 1, 1, 0.922
3, 35, 14, 1, 1, 1.187
3, 36, 29, 1, 1, 0.641
3, 37, 37, 1, 0, 1.363
3, 38, 49, 0, 0, 0.000
3, 39, 51, 0, 0, 0.000
1, 0, 52, 0, 0, 0.000
1, 1, 20, 1, 1, 0.555
1, 2, 40, 1, 0, 0.514
1, 3, 35, 0, 0, 0.000
1, 4, 29, 0, 0, 0.000
1, 5, 24, 0, 0, 0.000
1, 6, 45, 0, 0, 0.000
1, 7, 36, 0, 0, 0.000
1, 8, 37, 0, 0, 0.000
1, 9, 23, 0, 0, 0.000
1, 10, 31, 0, 0, 0.000
1, 11, 34, 0, 0, 0.000
1, 12, 25, 0, 0, 0.000
1, 13, 18, 1, 1, 0.448
1, 14, 28, 0, 0, 0.000
1, 15, 19, 0, 0, 0.000
1, 16, 22, 1, 1, 0.398
1, 17, 51, 0, 0, 0.000
1, 18, 33, 0, 0, 0.000
1, 19, 26, 0, 0, 0.000
1, 20, 50, 0, 0, 0.000
1, 21, 44, 0, 0, 0.000
1, 22, 48, 1, 0, 0.456
1, 23, 42, 0, 0, 0.000
1, 24, 39, 1, 0, 0.447
1, 25, 38, 0, 0, 0.000
1, 26, 13, 1, 1, 0.553
1, 27, 17, 0, 0, 0.000
1, 28, 27, 0, 0, 0.000
1, 29, 15, 0, 0, 0.000
1, 30, 46, 0, 0, 0.000
1, 31, 21, 1, 1, 0.364
1, 32, 30, 0, 0, 0.000
1, 33, 43, 1, 0, 0.338
1, 34, 47, 0, 0, 0.000
1, 35, 32, 0, 0, 0.000
1, 36, 16, 1, 1, 1.074
1, 37, 49, 0, 0, 0.000
1, 38, 41, 0, 0, 0.000
1, 39, 14, 1, 1, 0.737
0, 0, 26, 0, 0, 0.000
0, 1, 18, 0, 0, 0.000
0, 2, 20, 1, 1, 0.987
0, 3, 21, 1, 1, 0.403
0, 4, 28, 0, 0, 0.000
0, 5, 42, 1, 0, 0.346
0, 6, 23, 0, 0, 0.000
0, 7, 25, 0, 0, 0.000
0, 8, 50, 0, 0, 0.000
0, 9, 47, 0, 0, 0.000
0, 10, 29, 0, 0, 0.000
0, 11, 36, 0, 0, 0.000
0, 12, 34, 0, 0, 0.000
0, 13, 52, 0, 0, 0.000
0, 14, 15, 1, 1, 0.472
0, 15, 24, 1, 1, 0.518
0, 16, 33, 0, 0, 0.000
0, 17, 39, 0, 0, 0.000
0, 18, 49, 0, 0, 0.000
0, 19, 43, 0, 0, 0.000
0, 20, 13, 1, 1, 0.875
0, 21, 44, 1, 0, 1.204
0, 22, 30, 0, 0, 0.000
0, 23, 40, 0, 0, 0.000
0, 24, 22, 0, 0, 0.000
0, 25, 38, 1, 0, 0.808
0, 26, 32, 0, 0, 0.000
0, 27, 27, 0, 0, 0.000
0, 28, 16, 0, 0, 0.000
0, 29, 31, 0, 0, 0.000
0, 30, 46, 0, 0, 0.000
0, 31, 51, 0, 0, 0.000
0, 32, 41, 0, 0, 0.000
0, 33, 37, 0, 0, 0.000
0, 34, 19, 0, 0, 0.000
0, 35, 17, 0, 0, 0.000
0, 36, 35, 0, 0, 0.000
0, 37, 48, 0, 0, 0.000
0, 38, 45, 0, 0, 0.000
0, 39, 14, 0, 0, 0.000
2, 0, 39, 0, 0, 0.000
2, 1, 13, 0, 0, 0.000
2, 2, 46, 0, 0, 0.000
2, 3, 42, 0, 0, 0.000
2, 4, 28, 0, 0, 0.000
2, 5, 15, 0, 0, 0.000
2, 6, 26, 1, 1, 0.932
2, 7, 44, 0, 0, 0.000
2, 8, 49, 0, 0, 0.000
2, 9, 43, 0, 0, 0.000
2, 10, 37, 1, 0, 0.465
2, 11, 21, 1, 1, 0.413
2, 12, 50, 0, 0, 0.000
2, 13, 32, 1, 1, 0.539
2, 14, 31, 0, 0, 0.000
2, 15, 24, 1, 1, 0.668
2, 16, 22, 0, 0, 0.000
2, 17, 30, 0, 0, 0.000
2, 18, 29, 0, 0, 0.000
2, 19, 45, 0, 0, 0.000
2, 20, 17, 0, 0, 0.000
2, 21, 35, 0, 0, 0.000
2, 22, 16, 0, 0, 0.000
2, 23, 40, 0, 0, 0.000
2, 24, 33, 0, 0, 0.000
2, 25, 27, 0, 0, 0.000
2, 26, 34, 1, 0, 0.473
2, 27, 23, 0, 0, 0.000
2, 28, 18, 1, 1, 0.307
2, 29, 38, 0, 0, 0.000
2, 30, 25, 1, 1, 0.399
2, 31, 52, 0, 0, 0.000
2, 32, 19, 1, 1, 0.430
2, 33, 47, 0, 0, 0.000
2, 34, 51, 0, 0, 0.000
2, 35, 48, 0, 0, 0.000
2, 36, 41, 0, 0, 0.000
2, 37, 14, 1, 1, 0.468
2, 38, 36, 0, 0, 0.000
2, 39, 20, 0, 0, 0.000
5, 0, 40, 0, 0, 0.000
5, 1, 39, 0, 0, 0.000
5, 2, 47, 0, 0, 0.000
5, 3, 25, 0, 0, 0.000
5, 4, 28, 0, 0, 0.000
5, 5, 18, 1, 1, 0.630
5, 6, 14, 0, 0, 0.000
5, 7, 32, 0, 0, 0.000
5, 8, 24, 0, 0, 0.000
5, 9, 51, 0, 0, 0.000
5, 10, 19, 1, 1, 1.466
5, 11, 52, 0, 0, 0.000
5, 12, 22, 0, 0, 0.000
5, 13, 49, 1, 0, 0.946
5, 14, 34, 0, 0, 0.000
5, 15, 30, 0, 0, 0.000
5, 16, 27, 0, 0, 0.000
5, 17, 33, 0, 0, 0.000
5, 18, 21, 0, 0, 0.000
5, 19, 26, 1, 1, 0.642
5, 20, 45, 0, 0, 0.000
5, 21, 48, 1, 0, 1.184
5, 22, 38, 1, 0, 0.558
5, 23, 37, 0, 0, 0.000
5, 24, 41, 0, 0, 0.000
5, 25, 44, 0, 0, 0.000
5, 26, 13, 0, 0, 0.000
5, 27, 15, 1, 1, 0.386
5, 28, 43, 0, 0, 0.000
5, 29, 17, 0, 0, 0.000
5, 30, 42, 0, 0, 0.000
5, 31, 50, 0, 0, 0.000
5, 32, 46, 0, 0, 0.000
5, 33, 35, 0, 0, 0.000
5, 34, 23, 1, 1, 0.992
5, 35, 31, 0, 0, 0.000
5, 36, 36, 0, 0, 0.000
5, 37, 20, 0, 0, 0.000
5, 38, 16, 0, 0, 0.000
5, 39, 29, 0, 0, 0.000
