Block,stimulation_condition,Trial,bridge/house[1/2],image_code,space_pressed,correct_incorrect,reaction_time
0, 1, 0, 2, 23,1,1, 0.453
0, 1, 1, 1, 34,1,0, 0.906
0, 1, 2, 1, 40,0,1, 0.000
0, 1, 3, 1, 35,1,0, 0.869
0, 1, 4, 1, 36,1,0, 0.531
0, 1, 5, 2, 31,1,1, 0.602
0, 1, 6, 1, 22,1,1, 0.673
0, 1, 7, 1, 14,1,1, 1.028
0, 1, 8, 2, 32,1,1, 0.583
0, 1, 9, 1, 38,1,0, 0.602
0, 1, 10, 2, 52,1,0, 0.547
0, 1, 11, 2, 43,1,0, 0.531
0, 1, 12, 0, 24,0,0, 0.000
0, 1, 13, 1, 18,1,1, 0.399
0, 1, 14, 2, 45,1,0, 1.043
0, 1, 15, 0, 16,0,0, 0.000
0, 1, 16, 2, 25,1,1, 0.411
0, 1, 17, 2, 26,1,1, 0.734
0, 1, 18, 1, 41,1,0, 0.441
0, 1, 19, 1, 37,0,1, 0.000
0, 1, 20, 0, 20,0,0, 0.000
0, 1, 21, 2, 27,1,1, 0.802
0, 1, 22, 1, 19,1,1, 0.741
0, 1, 23, 1, 17,1,1, 1.337
0, 1, 24, 1, 13,1,1, 0.714
0, 1, 25, 1, 42,0,1, 0.000
0, 1, 26, 2, 47,1,0, 0.563
0, 1, 27, 1, 15,1,1, 0.794
0, 1, 28, 2, 49,0,1, 0.000
0, 1, 29, 1, 33,0,1, 0.000
0, 1, 30, 1, 39,1,0, 0.769
0, 1, 31, 2, 51,0,1, 0.000
0, 1, 32, 1, 21,1,1, 0.596
0, 1, 33, 2, 50,1,0, 0.864
0, 1, 34, 2, 44,0,1, 0.000
0, 1, 35, 0, 29,0,0, 0.000
0, 1, 36, 2, 30,1,1, 1.005
0, 1, 37, 2, 48,0,1, 0.000
0, 1, 38, 2, 46,1,0, 0.882
0, 1, 39, 0, 28,0,0, 0.000
4, 2, 0, 1, 17,1,1, 0.503
4, 2, 1, 2, 47,0,1, 0.000
4, 2, 2, 1, 15,1,1, 0.456
4, 2, 3, 2, 31,1,1, 0.718
4, 2, 4, 0, 30,0,0, 0.000
4, 2, 5, 2, 28,1,1, 0.650
4, 2, 6, 1, 22,1,1, 0.467
4, 2, 7, 1, 38,1,0, 0.602
4, 2, 8, 1, 37,0,1, 0.000
4, 2, 9, 2, 43,1,0, 0.538
4, 2, 10, 2, 49,1,0, 0.768
4, 2, 11, 1, 41,1,0, 0.479
4, 2, 12, 2, 29,1,1, 0.473
4, 2, 13, 2, 44,0,1, 0.000
4, 2, 14, 1, 42,1,0, 0.890
4, 2, 15, 2, 52,1,0, 0.626
4, 2, 16, 2, 27,1,1, 1.159
4, 2, 17, 0, 18,0,0, 0.000
4, 2, 18, 1, 13,1,1, 0.480
4, 2, 19, 1, 36,1,0, 0.581
4, 2, 20, 1, 14,1,1, 0.545
4, 2, 21, 2, 50,1,0, 0.557
4, 2, 22, 1, 33,1,0, 0.358
4, 2, 23, 1, 16,1,1, 0.390
4, 2, 24, 1, 39,1,0, 0.616
4, 2, 25, 0, 24,0,0, 0.000
4, 2, 26, 0, 25,0,0, 0.000
4, 2, 27, 2, 45,0,1, 0.000
4, 2, 28, 2, 26,1,1, 0.769
4, 2, 29, 1, 34,0,1, 0.000
4, 2, 30, 1, 35,1,0, 0.413
4, 2, 31, 1, 19,1,1, 0.511
4, 2, 32, 0, 23,0,0, 0.000
4, 2, 33, 1, 21,1,1, 0.572
4, 2, 34, 1, 20,1,1, 0.602
4, 2, 35, 2, 48,0,1, 0.000
4, 2, 36, 2, 46,0,1, 0.000
4, 2, 37, 1, 40,1,0, 0.681
4, 2, 38, 2, 51,0,1, 0.000
4, 2, 39, 2, 32,1,1, 0.767
5, 3, 0, 1, 20,1,1, 0.679
5, 3, 1, 0, 29,0,0, 0.000
5, 3, 2, 2, 44,1,0, 0.377
5, 3, 3, 2, 50,1,0, 0.534
5, 3, 4, 2, 30,1,1, 1.026
5, 3, 5, 2, 46,0,1, 0.000
5, 3, 6, 2, 48,0,1, 0.000
5, 3, 7, 0, 23,0,0, 0.000
5, 3, 8, 1, 37,1,0, 0.537
5, 3, 9, 1, 42,0,1, 0.000
5, 3, 10, 2, 47,1,0, 0.717
5, 3, 11, 1, 22,1,1, 1.227
5, 3, 12, 2, 45,1,0, 0.495
5, 3, 13, 1, 15,1,1, 0.531
5, 3, 14, 1, 41,1,0, 0.938
5, 3, 15, 1, 19,1,1, 0.957
5, 3, 16, 0, 27,0,0, 0.000
5, 3, 17, 2, 51,1,0, 0.490
5, 3, 18, 1, 14,1,1, 0.712
5, 3, 19, 0, 31,0,0, 0.000
5, 3, 20, 1, 40,1,0, 0.161
5, 3, 21, 1, 39,0,1, 0.000
5, 3, 22, 2, 49,0,1, 0.000
5, 3, 23, 1, 36,1,0, 0.571
5, 3, 24, 1, 16,1,1, 1.008
5, 3, 25, 1, 18,1,1, 0.390
5, 3, 26, 0, 17,0,0, 0.000
5, 3, 27, 2, 52,0,1, 0.000
5, 3, 28, 1, 35,0,1, 0.000
5, 3, 29, 1, 33,1,0, 0.375
5, 3, 30, 1, 34,1,0, 0.582
5, 3, 31, 2, 25,1,1, 0.808
5, 3, 32, 1, 13,1,1, 0.540
5, 3, 33, 2, 32,1,1, 0.916
5, 3, 34, 1, 38,0,1, 0.000
5, 3, 35, 2, 26,1,1, 0.640
5, 3, 36, 1, 21,1,1, 0.552
5, 3, 37, 2, 24,1,1, 1.082
5, 3, 38, 0, 28,0,0, 0.000
5, 3, 39, 2, 43,1,0, 0.446
3, 1, 0, 0, 32,0,0, 0.000
3, 1, 1, 0, 28,0,0, 0.000
3, 1, 2, 2, 26,1,1, 0.306
3, 1, 3, 0, 22,0,0, 0.000
3, 1, 4, 2, 47,1,0, 0.372
3, 1, 5, 1, 37,0,1, 0.000
3, 1, 6, 2, 48,1,0, 0.588
3, 1, 7, 2, 51,0,1, 0.000
3, 1, 8, 2, 43,1,0, 0.933
3, 1, 9, 2, 50,1,0, 0.992
3, 1, 10, 2, 25,1,1, 0.528
3, 1, 11, 1, 42,0,1, 0.000
3, 1, 12, 1, 13,1,1, 1.102
3, 1, 13, 1, 38,1,0, 0.827
3, 1, 14, 2, 23,1,1, 0.640
3, 1, 15, 1, 15,1,1, 0.683
3, 1, 16, 1, 14,1,1, 0.645
3, 1, 17, 1, 40,1,0, 0.402
3, 1, 18, 1, 39,1,0, 0.409
3, 1, 19, 1, 41,0,1, 0.000
3, 1, 20, 1, 19,1,1, 0.515
3, 1, 21, 1, 35,0,1, 0.000
3, 1, 22, 2, 52,0,1, 0.000
3, 1, 23, 2, 49,0,1, 0.000
3, 1, 24, 1, 36,0,1, 0.000
3, 1, 25, 1, 17,1,1, 0.476
3, 1, 26, 0, 31,0,0, 0.000
3, 1, 27, 0, 29,0,0, 0.000
3, 1, 28, 2, 45,1,0, 0.843
3, 1, 29, 0, 24,0,0, 0.000
3, 1, 30, 1, 34,1,0, 0.631
3, 1, 31, 1, 33,0,1, 0.000
3, 1, 32, 0, 20,0,0, 0.000
3, 1, 33, 2, 46,0,1, 0.000
3, 1, 34, 1, 16,1,1, 0.650
3, 1, 35, 2, 27,1,1, 0.609
3, 1, 36, 2, 44,1,0, 0.800
3, 1, 37, 1, 21,1,1, 0.608
3, 1, 38, 0, 30,0,0, 0.000
3, 1, 39, 0, 18,0,0, 0.000
1, 2, 0, 2, 45,1,0, 0.606
1, 2, 1, 1, 15,1,1, 0.766
1, 2, 2, 2, 49,0,1, 0.000
1, 2, 3, 1, 33,1,0, 0.330
1, 2, 4, 2, 32,1,1, 0.788
1, 2, 5, 1, 34,1,0, 0.486
1, 2, 6, 0, 30,0,0, 0.000
1, 2, 7, 1, 16,1,1, 0.649
1, 2, 8, 0, 28,0,0, 0.000
1, 2, 9, 1, 37,0,1, 0.000
1, 2, 10, 2, 25,1,1, 0.268
1, 2, 11, 1, 35,1,0, 0.594
1, 2, 12, 2, 29,1,1, 0.807
1, 2, 13, 1, 39,1,0, 0.630
1, 2, 14, 2, 50,0,1, 0.000
1, 2, 15, 1, 13,1,1, 0.589
1, 2, 16, 1, 36,1,0, 0.765
1, 2, 17, 1, 40,0,1, 0.000
1, 2, 18, 2, 46,0,1, 0.000
1, 2, 19, 1, 41,1,0, 0.628
1, 2, 20, 2, 31,1,1, 1.051
1, 2, 21, 2, 47,0,1, 0.000
1, 2, 22, 2, 23,1,1, 0.423
1, 2, 23, 1, 20,1,1, 0.488
1, 2, 24, 1, 19,1,1, 0.857
1, 2, 25, 1, 22,1,1, 0.629
1, 2, 26, 1, 14,1,1, 0.534
1, 2, 27, 2, 48,0,1, 0.000
1, 2, 28, 1, 38,1,0, 0.621
1, 2, 29, 0, 26,0,0, 0.000
1, 2, 30, 0, 27,0,0, 0.000
1, 2, 31, 0, 24,0,0, 0.000
1, 2, 32, 1, 18,1,1, 0.611
1, 2, 33, 1, 21,1,1, 0.748
1, 2, 34, 2, 52,0,1, 0.000
1, 2, 35, 2, 44,1,0, 0.452
1, 2, 36, 1, 42,1,0, 0.977
1, 2, 37, 2, 43,0,1, 0.000
1, 2, 38, 2, 51,0,1, 0.000
1, 2, 39, 1, 17,1,1, 0.459
2, 3, 0, 0, 28,0,0, 0.000
2, 3, 1, 1, 39,1,0, 0.644
2, 3, 2, 1, 41,0,1, 0.000
2, 3, 3, 1, 13,1,1, 0.681
2, 3, 4, 1, 19,1,1, 0.424
2, 3, 5, 2, 30,1,1, 0.584
2, 3, 6, 0, 20,0,0, 0.000
2, 3, 7, 1, 33,0,1, 0.000
2, 3, 8, 2, 27,1,1, 0.728
2, 3, 9, 0, 18,0,0, 0.000
2, 3, 10, 2, 45,1,0, 0.817
2, 3, 11, 2, 49,0,1, 0.000
2, 3, 12, 2, 32,1,1, 0.613
2, 3, 13, 2, 43,0,1, 0.000
2, 3, 14, 1, 37,1,0, 0.468
2, 3, 15, 0, 25,0,0, 0.000
2, 3, 16, 1, 16,1,1, 0.520
2, 3, 17, 2, 51,1,0, 1.005
2, 3, 18, 1, 14,1,1, 0.767
2, 3, 19, 0, 22,0,0, 0.000
2, 3, 20, 2, 47,1,0, 0.485
2, 3, 21, 2, 52,0,1, 0.000
2, 3, 22, 1, 42,0,1, 0.000
2, 3, 23, 0, 26,0,0, 0.000
2, 3, 24, 1, 34,1,0, 0.521
2, 3, 25, 1, 36,1,0, 0.588
2, 3, 26, 2, 31,1,1, 0.448
2, 3, 27, 1, 38,1,0, 1.274
2, 3, 28, 2, 24,1,1, 0.551
2, 3, 29, 0, 29,0,0, 0.000
2, 3, 30, 2, 46,1,0, 0.668
2, 3, 31, 1, 35,0,1, 0.000
2, 3, 32, 1, 17,1,1, 0.612
2, 3, 33, 2, 44,0,1, 0.000
2, 3, 34, 1, 21,1,1, 0.339
2, 3, 35, 2, 23,1,1, 0.822
2, 3, 36, 2, 50,0,1, 0.000
2, 3, 37, 1, 15,1,1, 0.612
2, 3, 38, 2, 48,1,0, 0.865
2, 3, 39, 1, 40,1,0, 0.922
